LabVIEW Measurement
Writer_Version	2
Reader_Version	2
Separator	Tab
Decimal_Separator	,
Multi_Headings	No
X_Columns	One
Time_Pref	Absolute
Operator	ruan.comelli
Date	2019/06/19
Time	16:40:15,906917650058118789
***End_of_Header***

Channels	1
Samples	1
Date	2019/06/19
Time	16:40:15,906917650058118789
Y_Unit_Label	Deg C
X_Dimension	Time
X0	0,0000000000000000E+0
Delta_X	0,000000
***End_of_Header***
X_Value	RTD Temperature	Comment
0,000000	59,820113
0,447000	59,820424
0,654000	59,821045
0,866000	59,821821
1,076000	59,821666
1,303000	59,821355
1,515000	59,822442
1,722000	59,822597
1,929000	59,821821
2,135000	59,822132
2,349000	59,821511
2,556000	59,821200
2,766000	59,822597
3,000000	59,821200
3,207000	59,822908
3,413000	59,822287
3,619000	59,822287
3,825000	59,821355
4,032000	59,821666
4,247000	59,822132
4,457000	59,822287
4,666000	59,821666
4,875000	59,821666
5,089000	59,822597
5,296000	59,821045
5,502000	59,821976
5,709000	59,821821
5,915000	59,821355
6,122000	59,821200
6,330000	59,821976
6,544000	59,822132
6,770000	59,821355
6,980000	59,822442
7,187000	59,823529
7,395000	59,822442
7,601000	59,822597
7,809000	59,821511
8,016000	59,822287
8,230000	59,822442
8,436000	59,823529
8,643000	59,823063
8,850000	59,823374
9,059000	59,822908
9,271000	59,823374
9,478000	59,823839
9,685000	59,822908
9,892000	59,822597
10,099000	59,822442
10,310000	59,822442
10,517000	59,822442
10,724000	59,821200
10,936000	59,822287
11,145000	59,821821
11,351000	59,822287
11,559000	59,822442
11,771000	59,821666
11,992000	59,820579
12,199000	59,822442
12,405000	59,822287
12,612000	59,821045
12,820000	59,820890
13,027000	59,820579
13,243000	59,821045
13,452000	59,821666
13,669000	59,820113
13,876000	59,821976
14,084000	59,820424
14,303000	59,820579
14,511000	59,820890
14,718000	59,821355
14,924000	59,821045
15,131000	59,821666
15,348000	59,820113
15,554000	59,821666
15,761000	59,820579
15,968000	59,820269
16,181000	59,820734
16,388000	59,821355
16,601000	59,821511
16,808000	59,821200
17,025000	59,821355
17,231000	59,820579
17,443000	59,821821
17,650000	59,822132
17,859000	59,820890
18,066000	59,821511
18,273000	59,821821
18,480000	59,823529
18,686000	59,822753
18,892000	59,823218
19,099000	59,823218
19,314000	59,822597
19,521000	59,822908
19,728000	59,822753
19,935000	59,822908
20,145000	59,822908
20,358000	59,823218
20,566000	59,823218
20,773000	59,823839
20,981000	59,823839
21,187000	59,824460
21,394000	59,823218
21,607000	59,824771
21,814000	59,824615
22,020000	59,824305
22,233000	59,825236
22,440000	59,824926
22,650000	59,825392
22,865000	59,825236
23,072000	59,825081
23,283000	59,826013
23,502000	59,826168
23,708000	59,826478
23,915000	59,826944
24,122000	59,826789
24,329000	59,826478
24,542000	59,827099
24,753000	59,827410
24,959000	59,827876
25,167000	59,826944
25,374000	59,826944
25,592000	59,828186
25,799000	59,828807
26,006000	59,829117
26,215000	59,828807
26,422000	59,827876
26,629000	59,829117
26,838000	59,827876
27,057000	59,828497
27,264000	59,828186
27,472000	59,828807
27,679000	59,829583
27,888000	59,828652
28,102000	59,830049
28,309000	59,829117
28,515000	59,828497
28,722000	59,828652
28,929000	59,828497
29,135000	59,827720
29,343000	59,827876
29,549000	59,827099
29,757000	59,826323
29,979000	59,826944
30,192000	59,826013
30,399000	59,826013
30,605000	59,826478
30,811000	59,825857
31,019000	59,825547
31,227000	59,824615
31,433000	59,824305
31,640000	59,825392
31,860000	59,825236
32,067000	59,824150
32,286000	59,824150
32,493000	59,824305
32,707000	59,825547
32,913000	59,825236
33,120000	59,825081
33,327000	59,823995
33,539000	59,825857
33,747000	59,824305
33,956000	59,824615
34,163000	59,824771
34,370000	59,824460
34,589000	59,824926
34,795000	59,825236
35,002000	59,824150
35,215000	59,824615
35,422000	59,824615
35,629000	59,824460
35,842000	59,825081
36,049000	59,824615
36,266000	59,823995
36,475000	59,823839
36,682000	59,823995
36,902000	59,823995
37,109000	59,824150
37,320000	59,825236
37,528000	59,824460
37,741000	59,823684
37,954000	59,825081
38,179000	59,824771
38,386000	59,824926
38,608000	59,825392
38,815000	59,824460
39,021000	59,823995
39,233000	59,824150
39,443000	59,825236
39,658000	59,824305
39,866000	59,823839
40,074000	59,824305
40,280000	59,824460
40,487000	59,824305
40,698000	59,823839
40,904000	59,824615
41,113000	59,824150
41,330000	59,823839
41,536000	59,823995
41,752000	59,824926
41,961000	59,824150
42,170000	59,823529
42,377000	59,823839
42,586000	59,823995
42,808000	59,824615
43,015000	59,824926
43,225000	59,824771
43,432000	59,824771
43,645000	59,823839
43,852000	59,824771
44,075000	59,825081
44,282000	59,824460
44,489000	59,825081
44,709000	59,825236
44,916000	59,825236
45,129000	59,826168
45,336000	59,827099
45,554000	59,826789
45,776000	59,824615
45,983000	59,826478
46,190000	59,826013
46,403000	59,825547
46,610000	59,826168
46,817000	59,825392
47,024000	59,825392
47,236000	59,825702
47,444000	59,825081
47,671000	59,825236
47,878000	59,824460
48,091000	59,825081
48,299000	59,824460
48,505000	59,824615
48,722000	59,825081
48,929000	59,825857
49,136000	59,824150
49,347000	59,823684
49,554000	59,824615
49,761000	59,824771
49,967000	59,824926
50,181000	59,825081
50,388000	59,825857
50,596000	59,824771
50,809000	59,824926
51,016000	59,825236
51,229000	59,823995
51,435000	59,824305
51,651000	59,826013
51,859000	59,823839
52,066000	59,824771
52,278000	59,823684
52,506000	59,824150
52,713000	59,824305
52,920000	59,823218
53,127000	59,823839
53,338000	59,824305
53,549000	59,823684
53,756000	59,824305
53,963000	59,823374
54,170000	59,823063
54,385000	59,823529
54,593000	59,823529
54,800000	59,823063
55,015000	59,824150
55,222000	59,824771
55,429000	59,824771
55,636000	59,823995
55,850000	59,824460
56,057000	59,824460
56,281000	59,823995
56,488000	59,822753
56,695000	59,824305
56,903000	59,824150
57,111000	59,824305
57,319000	59,824926
57,531000	59,824150
57,739000	59,825236
57,957000	59,824615
58,164000	59,824150
58,371000	59,824615
58,578000	59,825392
58,786000	59,824305
58,992000	59,824771
59,206000	59,825392
59,413000	59,825857
59,620000	59,825236
59,827000	59,824771
60,035000	59,824771
60,243000	59,825236
60,452000	59,825236
60,665000	59,825702
60,873000	59,825857
61,083000	59,825702
61,291000	59,826168
61,498000	59,827255
61,706000	59,828031
61,917000	59,826478
62,125000	59,827255
62,332000	59,827410
62,546000	59,828497
62,756000	59,827255
62,963000	59,826944
63,171000	59,828186
63,379000	59,827410
63,594000	59,829117
63,800000	59,829428
64,008000	59,827565
64,215000	59,828652
64,423000	59,829117
64,630000	59,828652
64,839000	59,829894
65,050000	59,829428
65,258000	59,829273
65,492000	59,828962
65,699000	59,828652
65,906000	59,828186
66,113000	59,828186
66,330000	59,827876
66,537000	59,826789
66,756000	59,828497
66,964000	59,827410
67,177000	59,827876
67,384000	59,828186
67,609000	59,827720
67,816000	59,827720
68,023000	59,827099
68,230000	59,827565
68,437000	59,826944
68,644000	59,827876
68,852000	59,827876
69,083000	59,827720
69,292000	59,827876
69,498000	59,826634
69,705000	59,827876
69,925000	59,826478
70,133000	59,826323
70,340000	59,827099
70,552000	59,827876
70,761000	59,827099
70,968000	59,828341
71,176000	59,828962
71,383000	59,827876
71,641000	59,827876
71,851000	59,826944
72,067000	59,826944
72,275000	59,826789
72,493000	59,827099
72,711000	59,828031
72,918000	59,828341
73,125000	59,827099
73,332000	59,827565
73,539000	59,828807
73,750000	59,827565
73,960000	59,828031
74,173000	59,828031
74,383000	59,826944
74,590000	59,828497
74,798000	59,828031
75,006000	59,828031
75,214000	59,827565
75,421000	59,827720
75,628000	59,828652
75,836000	59,828807
76,044000	59,829738
76,269000	59,829894
76,477000	59,829117
76,684000	59,829583
76,891000	59,828186
77,099000	59,830515
77,317000	59,830204
77,525000	59,829273
77,733000	59,830204
77,940000	59,830980
78,151000	59,830204
78,358000	59,830825
78,571000	59,829894
78,793000	59,830515
79,000000	59,829738
79,208000	59,830204
79,415000	59,831136
79,628000	59,829583
79,835000	59,830359
80,044000	59,830359
80,257000	59,830825
80,471000	59,830980
80,679000	59,830980
80,886000	59,831291
81,093000	59,831757
81,300000	59,830825
81,514000	59,832378
81,721000	59,831912
81,928000	59,830825
82,136000	59,831446
82,346000	59,831136
82,559000	59,832533
82,769000	59,832378
82,976000	59,831446
83,184000	59,831601
83,391000	59,831601
83,628000	59,831136
83,836000	59,831757
84,050000	59,831136
84,258000	59,830980
84,518000	59,831136
84,725000	59,831291
84,933000	59,831601
85,152000	59,831291
85,367000	59,831291
85,594000	59,830825
85,803000	59,832999
86,011000	59,830670
86,218000	59,830515
86,425000	59,831601
86,636000	59,829894
86,853000	59,830359
87,060000	59,829894
87,268000	59,828962
87,481000	59,829117
87,689000	59,829894
87,907000	59,828807
88,116000	59,828341
88,322000	59,827876
88,529000	59,829273
88,737000	59,828652
88,944000	59,829117
89,158000	59,828652
89,366000	59,828652
89,592000	59,828652
89,800000	59,828031
90,008000	59,827410
90,225000	59,827099
90,432000	59,827099
90,640000	59,827099
90,858000	59,827565
91,070000	59,827255
91,277000	59,826478
91,493000	59,825236
91,700000	59,826634
91,907000	59,827410
92,114000	59,826013
92,321000	59,826634
92,533000	59,826323
92,740000	59,826168
92,956000	59,826013
93,164000	59,827099
93,383000	59,826168
93,591000	59,826478
93,806000	59,826168
94,013000	59,826478
94,221000	59,825236
94,428000	59,826478
94,635000	59,826478
94,849000	59,826323
95,063000	59,825392
95,270000	59,827099
95,516000	59,825857
95,724000	59,826634
95,935000	59,826634
96,142000	59,826323
96,359000	59,826944
96,566000	59,827099
96,792000	59,826168
96,999000	59,826634
97,207000	59,825547
97,423000	59,825857
97,631000	59,827099
97,844000	59,826789
98,057000	59,825857
98,264000	59,826478
98,481000	59,826789
98,690000	59,826013
98,897000	59,826323
99,120000	59,826944
99,328000	59,825857
99,536000	59,825857
99,744000	59,826323
99,953000	59,826323
100,174000	59,824460
100,382000	59,826323
100,607000	59,826168
100,815000	59,826013
101,032000	59,826013
101,239000	59,825547
101,453000	59,826168
101,664000	59,825547
101,871000	59,825547
102,079000	59,826013
102,292000	59,825702
102,501000	59,825392
102,709000	59,825236
102,923000	59,826013
103,132000	59,824305
103,339000	59,824305
103,555000	59,824926
103,766000	59,824926
103,973000	59,825081
104,183000	59,823684
104,391000	59,824771
104,604000	59,824305
104,811000	59,824615
105,019000	59,823995
105,226000	59,823839
105,434000	59,822908
105,673000	59,823995
105,889000	59,822753
106,111000	59,823063
106,318000	59,822132
106,529000	59,821666
106,736000	59,821511
106,946000	59,820734
107,175000	59,820734
107,384000	59,819337
107,603000	59,820113
107,810000	59,819337
108,025000	59,818406
108,232000	59,817940
108,440000	59,817630
108,655000	59,816853
108,863000	59,817164
109,073000	59,816077
109,292000	59,816077
109,500000	59,816388
109,719000	59,815301
109,926000	59,816232
110,134000	59,814991
110,341000	59,814680
110,571000	59,815146
110,780000	59,815456
110,987000	59,814835
111,195000	59,814680
111,402000	59,815456
111,621000	59,815301
111,829000	59,815767
112,036000	59,815922
112,244000	59,814835
112,452000	59,815301
112,660000	59,815922
112,881000	59,815767
113,088000	59,816077
113,296000	59,815301
113,504000	59,815611
113,721000	59,815146
113,929000	59,815611
114,136000	59,816077
114,343000	59,816543
114,567000	59,815767
114,774000	59,816543
114,984000	59,816232
115,192000	59,815611
115,401000	59,816077
115,617000	59,815922
115,825000	59,816388
116,035000	59,814991
116,245000	59,816853
116,460000	59,815456
116,673000	59,815301
116,890000	59,814680
117,097000	59,814370
117,305000	59,814835
117,512000	59,815146
117,720000	59,815146
117,927000	59,812972
118,146000	59,812972
118,367000	59,812972
118,576000	59,812662
118,792000	59,811575
118,999000	59,811420
119,216000	59,810178
119,423000	59,810954
119,638000	59,810333
119,848000	59,810799
120,066000	59,810023
120,273000	59,809091
120,484000	59,809247
120,711000	59,808936
120,919000	59,809712
121,132000	59,808626
121,340000	59,809247
121,555000	59,808626
121,766000	59,810333
121,987000	59,809247
122,194000	59,808781
122,408000	59,808936
122,616000	59,808626
122,823000	59,806452
123,037000	59,807849
123,245000	59,806918
123,463000	59,805831
123,673000	59,805676
123,890000	59,805521
124,097000	59,805055
124,311000	59,804434
124,519000	59,803813
124,732000	59,803037
124,941000	59,803037
125,161000	59,801640
125,368000	59,802106
125,601000	59,801329
125,808000	59,800087
126,023000	59,799777
126,230000	59,799622
126,437000	59,798225
126,656000	59,799001
126,864000	59,797759
127,080000	59,797759
127,288000	59,798535
127,537000	59,798069
127,744000	59,796983
127,952000	59,796362
128,160000	59,797293
128,367000	59,797293
128,580000	59,796672
128,791000	59,796362
128,998000	59,796827
129,206000	59,796206
129,416000	59,796517
129,624000	59,796672
129,840000	59,796206
130,048000	59,796517
130,268000	59,796983
130,480000	59,796051
130,688000	59,794965
130,895000	59,795741
131,102000	59,794499
131,316000	59,794499
131,524000	59,795741
131,738000	59,794499
131,946000	59,793257
132,153000	59,793567
