LabVIEW Measurement
Writer_Version	2
Reader_Version	2
Separator	Tab
Decimal_Separator	,
Multi_Headings	No
X_Columns	One
Time_Pref	Absolute
Operator	ruan.comelli
Date	2019/06/17
Time	14:24:12,4256025500583680111
***End_of_Header***

Channels	1
Samples	1
Date	2019/06/17
Time	14:24:12,4256025500583680111
Y_Unit_Label	Deg C
X_Dimension	Time
X0	0,0000000000000000E+0
Delta_X	0,000000
***End_of_Header***
X_Value	RTD Temperature	Comment
0,000000	19,509672
0,212000	19,509519
0,422000	19,510899
0,635000	19,510899
0,852000	19,510285
1,058000	19,511359
1,282000	19,512279
1,489000	19,512433
1,696000	19,513200
1,902000	19,513353
2,111000	19,513967
2,375000	19,513200
2,581000	19,514733
2,787000	19,514887
2,994000	19,515500
3,204000	19,514427
3,411000	19,515500
3,618000	19,515654
3,824000	19,515194
4,032000	19,515347
4,239000	19,515500
4,446000	19,515961
4,658000	19,516574
4,870000	19,517341
5,081000	19,516881
5,288000	19,516114
5,501000	19,516881
5,707000	19,517494
5,919000	19,516574
6,157000	19,517188
6,367000	19,517341
6,574000	19,518108
6,781000	19,518415
6,987000	19,518875
7,201000	19,518875
7,408000	19,518568
7,615000	19,518568
7,831000	19,518415
8,042000	19,520102
8,260000	19,518568
8,469000	19,519182
8,682000	19,518568
8,891000	19,518261
9,098000	19,519488
9,310000	19,518721
9,520000	19,520562
9,735000	19,519488
9,942000	19,518415
10,156000	19,519642
10,363000	19,519642
10,570000	19,518415
10,776000	19,519335
11,014000	19,521175
11,222000	19,519948
11,456000	19,520715
11,669000	19,520255
11,876000	19,519948
12,082000	19,520102
12,293000	19,522096
12,502000	19,520715
12,709000	19,520409
12,923000	19,521942
13,130000	19,522863
13,392000	19,521636
13,599000	19,521789
13,809000	19,521942
14,019000	19,522403
14,226000	19,523323
14,436000	19,522096
14,643000	19,523169
14,850000	19,524090
15,057000	19,524397
15,263000	19,523630
15,470000	19,524243
15,676000	19,524550
15,888000	19,523783
16,094000	19,524703
16,303000	19,525624
16,535000	19,524703
16,745000	19,525777
16,956000	19,525470
17,163000	19,524703
17,385000	19,524703
17,592000	19,525010
17,798000	19,524550
18,006000	19,525163
18,215000	19,525470
18,423000	19,524550
18,629000	19,525010
18,844000	19,525470
19,058000	19,524243
19,265000	19,524397
19,479000	19,524243
19,686000	19,524550
19,898000	19,525010
20,105000	19,523936
20,318000	19,524397
20,525000	19,524243
20,732000	19,523476
20,946000	19,524703
21,154000	19,524550
21,366000	19,524243
21,575000	19,525470
21,782000	19,523783
21,988000	19,524550
22,195000	19,524090
22,401000	19,524550
22,609000	19,524397
22,817000	19,525163
23,033000	19,524397
23,242000	19,524550
23,459000	19,523169
23,666000	19,524397
23,881000	19,523169
24,089000	19,523936
24,296000	19,524397
24,504000	19,524243
24,710000	19,522709
24,917000	19,523783
25,158000	19,523783
25,365000	19,522863
25,584000	19,523936
25,791000	19,524243
26,008000	19,523476
26,218000	19,522556
26,432000	19,522709
26,661000	19,522096
26,873000	19,521942
27,080000	19,521942
27,286000	19,522096
27,509000	19,522556
27,716000	19,521482
27,935000	19,522096
28,146000	19,521789
28,359000	19,521022
28,567000	19,521175
28,774000	19,521175
28,991000	19,521175
29,206000	19,520409
29,415000	19,521175
29,633000	19,520102
29,840000	19,519948
30,057000	19,520255
30,264000	19,519948
30,471000	19,519642
30,681000	19,519182
30,888000	19,519488
31,108000	19,521175
31,315000	19,519948
31,529000	19,519182
31,740000	19,519182
31,954000	19,519642
32,161000	19,519028
32,367000	19,519488
32,582000	19,518108
32,788000	19,519335
33,004000	19,517494
33,210000	19,518721
33,426000	19,518108
33,633000	19,518415
33,844000	19,517954
34,062000	19,516881
34,283000	19,518108
34,498000	19,517954
34,708000	19,517801
34,931000	19,516574
35,139000	19,516574
35,347000	19,516114
35,561000	19,516114
35,773000	19,515961
35,994000	19,517034
36,200000	19,515500
36,406000	19,515961
36,619000	19,515040
36,828000	19,515194
37,045000	19,515347
37,255000	19,514733
37,463000	19,514887
37,674000	19,515040
37,881000	19,514120
38,092000	19,513967
38,299000	19,515194
38,505000	19,513813
38,713000	19,513967
38,930000	19,514427
39,137000	19,513660
39,369000	19,514120
39,576000	19,514120
39,790000	19,513660
39,997000	19,514120
40,204000	19,513046
40,411000	19,512893
40,637000	19,513046
40,881000	19,513813
41,096000	19,513813
41,303000	19,513046
41,510000	19,513967
41,718000	19,512740
41,928000	19,513506
42,147000	19,513967
42,354000	19,514120
42,573000	19,512893
42,780000	19,513506
42,986000	19,513046
43,193000	19,512893
43,403000	19,513660
43,610000	19,513967
43,828000	19,512279
44,036000	19,513046
44,253000	19,512126
44,463000	19,513046
44,693000	19,512740
44,912000	19,512586
45,140000	19,512893
45,353000	19,511973
45,560000	19,511206
45,766000	19,513200
45,973000	19,512279
46,180000	19,512433
46,405000	19,512740
46,613000	19,513200
46,821000	19,513046
47,032000	19,512893
47,251000	19,511973
47,481000	19,513353
47,698000	19,510746
47,905000	19,514120
48,137000	19,512740
48,344000	19,512740
48,554000	19,512433
48,761000	19,513046
48,984000	19,513506
49,191000	19,513200
49,398000	19,513200
49,615000	19,511666
49,823000	19,512279
50,033000	19,511973
50,240000	19,512740
50,447000	19,513200
50,655000	19,513046
50,883000	19,512279
51,090000	19,512740
51,304000	19,513046
51,551000	19,513813
51,758000	19,512126
51,964000	19,512586
52,172000	19,513046
52,378000	19,511973
52,586000	19,511512
52,794000	19,512586
53,025000	19,511973
53,237000	19,511973
53,445000	19,512279
53,658000	19,512279
53,864000	19,511052
54,072000	19,511359
54,278000	19,512586
54,502000	19,511819
54,710000	19,513200
54,917000	19,512279
55,126000	19,513200
55,353000	19,513353
55,578000	19,513200
55,792000	19,513046
55,999000	19,512893
56,207000	19,513046
56,414000	19,512893
56,621000	19,513660
56,829000	19,513813
57,039000	19,513660
57,247000	19,513506
57,454000	19,513660
57,661000	19,514427
57,868000	19,513353
58,079000	19,513660
58,286000	19,513353
58,498000	19,514427
58,709000	19,514273
58,921000	19,513660
59,133000	19,513967
59,341000	19,513967
59,562000	19,513967
59,769000	19,513813
59,981000	19,513353
60,188000	19,514120
60,396000	19,513353
60,603000	19,512893
60,818000	19,512433
61,028000	19,513967
61,241000	19,512740
61,450000	19,512279
61,688000	19,512126
61,896000	19,512433
62,106000	19,511206
62,360000	19,511819
62,567000	19,511512
62,776000	19,512433
62,989000	19,510746
63,200000	19,511819
63,407000	19,510592
63,614000	19,511052
63,835000	19,510285
64,043000	19,509519
64,253000	19,510439
64,468000	19,509672
64,697000	19,510132
64,904000	19,510592
65,111000	19,510899
65,324000	19,511206
65,533000	19,510132
65,750000	19,510899
65,966000	19,509672
66,173000	19,509365
66,381000	19,509979
66,602000	19,509212
66,808000	19,509979
67,021000	19,510592
67,250000	19,509365
67,474000	19,510899
67,681000	19,509672
