LabVIEW Measurement
Writer_Version	2
Reader_Version	2
Separator	Tab
Decimal_Separator	,
Multi_Headings	No
X_Columns	One
Time_Pref	Absolute
Operator	ruan.comelli
Date	2019/06/19
Time	17:17:59,8989176500581229313
***End_of_Header***

Channels	1
Samples	1
Date	2019/06/19
Time	17:17:59,8989176500581229313
Y_Unit_Label	Deg C
X_Dimension	Time
X0	0,0000000000000000E+0
Delta_X	0,000000
***End_of_Header***
X_Value	RTD Temperature	Comment
0,000000	59,804434
0,221000	59,804745
0,445000	59,804589
0,652000	59,803658
0,863000	59,803192
1,069000	59,804900
1,294000	59,803813
1,500000	59,804900
1,707000	59,805366
1,914000	59,805055
2,121000	59,805366
2,344000	59,805366
2,551000	59,805210
2,759000	59,804279
2,965000	59,805521
3,176000	59,804900
3,384000	59,805210
3,594000	59,804434
3,800000	59,805210
4,008000	59,805055
4,215000	59,805366
4,421000	59,804900
4,633000	59,805210
4,843000	59,805676
5,054000	59,806297
5,262000	59,805210
5,473000	59,806142
5,697000	59,805987
5,904000	59,805831
6,116000	59,806918
6,323000	59,806297
6,535000	59,806608
6,741000	59,806452
6,947000	59,806763
7,153000	59,807229
7,360000	59,806142
7,567000	59,807384
7,774000	59,806918
7,981000	59,808470
8,189000	59,807694
8,401000	59,807849
8,609000	59,808005
8,816000	59,807384
9,023000	59,808626
9,230000	59,807849
9,485000	59,808005
9,694000	59,807384
9,902000	59,807849
10,109000	59,808315
10,316000	59,808160
10,527000	59,808936
10,744000	59,808626
10,954000	59,808936
11,161000	59,808936
11,368000	59,809402
11,576000	59,809402
11,788000	59,809402
12,002000	59,809091
12,227000	59,810954
12,434000	59,810333
12,640000	59,810954
12,851000	59,809091
13,057000	59,810023
13,264000	59,809402
13,575000	59,810178
13,782000	59,810333
14,019000	59,810489
14,227000	59,810333
14,443000	59,811265
14,649000	59,810799
14,865000	59,811110
15,072000	59,811575
15,289000	59,810799
15,501000	59,812041
15,724000	59,811265
15,930000	59,810799
16,137000	59,812041
16,343000	59,811575
16,585000	59,812041
16,791000	59,811886
17,016000	59,811575
17,223000	59,812196
17,430000	59,811265
17,637000	59,811575
17,852000	59,812351
18,059000	59,813128
18,266000	59,812662
18,555000	59,813593
18,768000	59,812041
18,975000	59,812507
19,182000	59,813904
19,394000	59,813749
19,612000	59,813904
19,818000	59,812817
20,025000	59,813904
20,232000	59,813749
20,441000	59,813593
20,649000	59,813749
20,862000	59,812507
21,069000	59,815456
21,297000	59,813904
21,504000	59,814991
21,711000	59,814059
21,918000	59,814991
22,128000	59,815146
22,340000	59,814525
22,547000	59,815456
22,758000	59,814680
22,966000	59,814370
23,173000	59,814525
23,380000	59,816543
23,612000	59,815146
23,820000	59,815146
24,032000	59,814835
24,239000	59,815456
24,451000	59,815922
24,661000	59,817009
24,873000	59,815922
25,080000	59,816543
25,304000	59,815611
25,511000	59,817009
25,718000	59,817009
25,925000	59,816232
26,132000	59,816853
26,339000	59,817319
26,545000	59,818251
26,752000	59,817630
26,959000	59,817474
27,166000	59,818716
27,374000	59,817319
27,587000	59,818561
27,796000	59,818561
28,008000	59,818872
28,244000	59,818406
28,457000	59,817630
28,669000	59,818716
28,880000	59,819958
29,088000	59,819027
29,295000	59,819337
29,502000	59,817785
29,730000	59,819493
29,937000	59,819027
30,151000	59,819337
30,357000	59,818872
30,564000	59,820269
30,770000	59,820890
30,994000	59,819958
31,201000	59,821045
31,426000	59,820424
31,633000	59,820734
31,839000	59,820424
32,058000	59,820890
32,292000	59,821666
32,499000	59,821200
32,707000	59,821821
32,913000	59,821355
33,125000	59,821666
33,344000	59,821976
33,551000	59,822597
33,768000	59,821821
33,977000	59,822753
34,193000	59,822597
34,400000	59,822442
34,614000	59,823218
34,840000	59,822597
35,051000	59,822908
35,269000	59,823839
35,479000	59,824305
35,696000	59,823995
35,904000	59,823684
36,115000	59,824305
36,322000	59,823684
36,528000	59,824615
36,741000	59,824150
36,947000	59,824460
37,155000	59,824460
37,366000	59,825392
37,579000	59,824926
37,789000	59,824771
37,996000	59,825081
38,204000	59,825857
38,417000	59,826634
38,625000	59,825236
38,831000	59,824771
39,039000	59,825081
39,252000	59,826789
39,460000	59,825547
39,667000	59,826478
39,880000	59,827099
40,089000	59,827099
40,296000	59,826634
40,507000	59,828186
40,727000	59,827255
40,951000	59,826944
41,158000	59,826944
41,365000	59,827565
41,575000	59,827876
41,782000	59,827720
41,991000	59,828031
42,202000	59,828497
42,419000	59,828186
42,626000	59,828962
42,851000	59,829273
43,059000	59,829428
43,303000	59,829894
43,526000	59,829273
43,738000	59,829117
43,945000	59,829894
44,151000	59,829738
44,361000	59,830359
44,567000	59,830359
44,780000	59,830515
45,023000	59,830980
45,240000	59,829894
45,447000	59,830515
45,655000	59,831912
45,867000	59,831446
46,074000	59,831601
46,284000	59,832222
46,492000	59,833154
46,702000	59,833154
46,925000	59,832688
47,132000	59,832999
47,340000	59,831601
47,553000	59,831912
47,760000	59,832843
47,967000	59,833775
48,174000	59,831446
48,395000	59,832999
48,606000	59,832999
48,815000	59,833775
49,022000	59,835172
49,230000	59,833309
49,437000	59,834240
49,643000	59,835017
49,850000	59,834861
50,074000	59,834861
50,287000	59,835793
50,497000	59,834396
50,705000	59,834861
50,914000	59,835172
51,121000	59,835017
51,339000	59,835638
51,549000	59,835638
51,756000	59,835638
51,963000	59,836414
52,169000	59,836569
52,383000	59,837345
52,618000	59,836880
52,824000	59,836259
53,033000	59,837501
53,240000	59,837345
53,447000	59,837190
53,654000	59,837190
53,865000	59,838898
54,072000	59,837966
54,296000	59,838432
54,509000	59,838587
54,717000	59,839208
54,925000	59,838587
55,149000	59,838742
55,365000	59,839519
55,571000	59,838587
55,782000	59,838277
55,989000	59,839208
56,196000	59,839829
56,412000	59,839519
56,619000	59,839829
56,835000	59,839674
57,042000	59,839984
57,250000	59,839674
57,479000	59,839363
57,700000	59,839829
57,911000	59,840450
58,124000	59,840605
58,330000	59,840605
58,537000	59,841226
58,783000	59,840605
58,990000	59,841692
59,210000	59,840761
59,418000	59,841847
59,651000	59,841226
59,885000	59,841537
60,109000	59,841382
60,317000	59,842468
60,524000	59,842934
60,732000	59,843244
60,940000	59,843089
61,147000	59,843555
61,361000	59,843865
61,569000	59,842934
61,776000	59,845107
61,985000	59,844176
62,197000	59,844021
62,407000	59,844176
62,623000	59,845107
62,830000	59,844952
63,038000	59,845263
63,258000	59,845728
63,470000	59,846349
63,677000	59,845573
63,895000	59,846505
64,102000	59,846194
64,309000	59,845573
64,520000	59,845573
64,727000	59,846349
64,945000	59,845728
65,153000	59,846660
65,360000	59,846194
65,578000	59,847126
65,792000	59,847126
66,006000	59,847747
66,214000	59,847436
66,437000	59,848057
66,645000	59,847591
66,859000	59,847591
67,066000	59,848523
67,289000	59,848367
67,514000	59,847747
67,722000	59,849144
67,928000	59,848212
68,137000	59,848678
68,348000	59,848057
68,557000	59,849144
68,764000	59,848833
68,970000	59,849299
69,188000	59,849765
69,395000	59,849609
69,603000	59,850541
69,813000	59,850696
70,020000	59,850386
70,228000	59,850386
70,435000	59,851317
70,659000	59,851007
70,879000	59,851317
71,096000	59,851472
71,307000	59,851472
71,514000	59,852404
71,721000	59,851783
71,928000	59,852714
72,148000	59,852870
72,371000	59,852249
72,582000	59,851783
72,792000	59,852870
73,010000	59,852870
73,217000	59,853490
73,424000	59,853646
73,631000	59,852870
73,846000	59,853025
74,052000	59,853490
74,260000	59,855043
74,468000	59,854111
74,679000	59,854888
74,888000	59,854888
75,119000	59,854732
75,326000	59,854732
75,534000	59,855664
75,754000	59,855198
75,961000	59,855509
76,169000	59,855664
76,380000	59,855509
76,599000	59,855819
76,806000	59,857372
77,014000	59,856751
77,234000	59,856440
77,455000	59,856595
77,664000	59,857837
77,871000	59,857216
78,091000	59,857061
78,299000	59,856595
78,506000	59,858148
78,715000	59,858458
78,922000	59,857682
79,137000	59,857682
79,345000	59,858458
79,558000	59,857372
79,767000	59,859545
79,986000	59,858769
80,193000	59,859545
80,400000	59,860011
80,609000	59,858303
80,820000	59,859545
81,049000	59,859390
81,257000	59,859855
81,467000	59,858303
81,674000	59,860011
81,883000	59,860632
82,090000	59,858924
82,298000	59,859700
82,506000	59,859700
82,715000	59,861097
82,922000	59,860476
83,130000	59,860166
83,348000	59,860476
83,555000	59,860787
83,763000	59,860787
83,970000	59,860476
84,177000	59,861718
84,401000	59,862029
84,609000	59,859855
84,821000	59,861253
85,040000	59,862339
85,247000	59,861874
85,469000	59,862339
85,677000	59,862184
85,887000	59,861874
86,114000	59,861874
86,343000	59,861718
86,553000	59,862805
86,760000	59,863581
86,968000	59,863426
87,175000	59,863892
87,390000	59,862650
87,601000	59,863116
87,811000	59,863426
88,026000	59,863271
88,233000	59,864202
88,440000	59,864047
88,649000	59,865134
88,855000	59,862805
89,073000	59,864668
89,286000	59,865134
89,505000	59,865444
89,715000	59,865910
89,940000	59,865755
90,153000	59,866220
90,360000	59,866065
90,589000	59,865289
90,797000	59,866065
91,015000	59,866997
91,223000	59,866686
91,431000	59,866997
91,652000	59,867462
91,860000	59,866686
92,068000	59,866065
92,282000	59,866841
92,490000	59,866531
92,698000	59,866686
92,913000	59,867462
93,121000	59,868239
93,328000	59,868549
93,536000	59,868549
93,743000	59,868239
93,952000	59,867462
94,160000	59,868860
94,369000	59,869325
94,584000	59,869636
94,792000	59,868549
95,004000	59,869170
95,285000	59,869636
95,492000	59,870101
95,705000	59,869481
95,912000	59,869636
96,127000	59,869015
96,335000	59,870257
96,543000	59,869481
96,751000	59,871033
96,958000	59,870567
97,168000	59,871188
97,376000	59,872896
97,591000	59,870101
97,799000	59,871033
98,015000	59,870567
98,241000	59,872275
98,449000	59,872585
98,662000	59,871499
98,869000	59,871654
99,083000	59,872430
99,302000	59,872120
99,528000	59,872275
99,735000	59,873206
99,943000	59,872430
100,162000	59,872275
100,369000	59,872585
100,577000	59,873051
100,792000	59,872275
101,021000	59,874448
101,228000	59,873206
101,435000	59,873051
101,651000	59,873517
101,859000	59,873983
102,068000	59,874448
102,286000	59,874138
102,509000	59,874604
102,717000	59,873672
102,925000	59,873827
103,133000	59,873517
103,354000	59,874604
103,563000	59,873983
103,771000	59,873983
103,982000	59,873983
104,191000	59,874759
104,403000	59,874759
104,633000	59,875535
104,861000	59,875069
105,069000	59,876311
105,277000	59,875535
105,494000	59,876156
105,733000	59,875535
105,943000	59,876777
106,151000	59,876622
106,372000	59,875845
106,582000	59,876001
106,793000	59,876001
107,001000	59,876777
107,209000	59,876311
107,434000	59,876932
107,644000	59,876932
107,852000	59,876932
108,059000	59,876932
108,267000	59,876311
108,518000	59,877553
108,730000	59,877553
108,942000	59,877553
109,150000	59,876777
109,357000	59,876622
109,565000	59,878174
109,772000	59,878174
109,980000	59,877708
110,196000	59,878019
110,408000	59,878640
110,617000	59,879261
110,827000	59,878485
111,034000	59,878485
111,254000	59,878950
111,464000	59,878174
111,672000	59,878174
111,882000	59,877864
112,109000	59,878329
112,317000	59,879261
112,525000	59,878640
112,743000	59,879106
112,957000	59,879261
113,165000	59,880192
113,373000	59,879882
113,588000	59,879727
113,796000	59,879727
114,005000	59,879571
114,221000	59,879727
114,429000	59,879416
114,644000	59,880658
114,851000	59,880658
115,058000	59,879727
115,266000	59,880348
115,504000	59,880813
115,724000	59,881590
115,936000	59,880348
116,143000	59,880658
116,355000	59,881590
116,563000	59,881434
116,770000	59,880348
116,996000	59,882055
117,207000	59,881745
117,425000	59,882366
117,634000	59,883142
117,841000	59,882366
118,049000	59,883608
118,256000	59,882831
118,478000	59,881745
118,689000	59,882521
118,905000	59,883142
119,117000	59,882831
119,331000	59,882987
119,542000	59,883297
119,764000	59,884850
119,971000	59,884229
120,194000	59,884073
120,402000	59,885005
120,610000	59,885781
120,821000	59,884384
121,029000	59,886402
121,237000	59,885626
121,445000	59,885160
